<?xml version="1.0" encoding="UTF-8"?>
<Bundle xmlns="http://hl7.org/fhir"
      	xmlns:xhtml="http://www.w3.org/1999/xhtml">
	<id value="svc-Bundle-01"/>
	<identifier>
		<system value="urn:oid:1.2.203.24341.1.20.2"/>
		<!--  OID need to be defined -->
		<!-- do you actually need an OID ? could be something like  http://europe.eu/health/vaccinationCard/sid ? -->
		<value value="V1CZ454557891308174803488707671418"/>
		<period>
			<start value="2020-12-27T14:30:00+01:00"/>
			<!-- <end value="add the date"/> -->
		</period>
	</identifier>	
	<type value="document"/>
	<timestamp value="2020-12-27T14:30:00+01:00"/>
	<!--e0-->
	<entry>
		<fullUrl value="urn:uuid:30551ce1-5a28-4356-b684-1e639094ad4d"/>
		<resource>
			<Composition>
				<id value="30551ce1-5a28-4356-b684-1e639094ad4d"/>
				<identifier>
					<system value="urn:oid:2.16.724.4.8.10.200.10"/>
					<value value="3f69e0a5-2177-4540-baab-7a5d0877428f"/>
				</identifier>
				<status value="final"/>
				<type>
					<coding>
						<system value="http://loinc.org"/>
						<code value="11369-6"/>
						<display value="Hx of Immunization"/>
					</coding>
				</type>
				<subject>
					<reference value="urn:uuid:2b90dd2b-2dab-4c75-9bb9-a355e07401e8"/>
				</subject>
				<date value="2020-12-27T14:30:00+01:00"/>
				<author>
					<display value="MUDr. Aleš Procházka"/>
				</author>
				<title value="Vaccine Certificate July 20, 2017 14:30"/>
				<confidentiality value="N"/>
				<attester>
					<mode value="legal"/>
					<!-- when it starts to be valid -->
					<time value="2020-12-27T14:30:00+01:00"/>
					<party>
						<reference value="urn:uuid:45a5c5b1-4ec1-4d60-b4b2-ff5a84a41fd7"/>
					</party>
				</attester>
				<custodian>
					<reference value="urn:uuid:45a5c5b1-4ec1-4d60-b4b2-ff5a84a41fd7"/>
				</custodian>
				<section>
					<title value="Vaccinations"/>
					<code>
						<coding>
							<system value="http://loinc.org"/>
							<code value="11369-6"/>
							<display value="Hx of Immunization"/>
						</coding>
					</code>
					<text>
						<status value="generated"/>
						<xhtml:div>
							<xhtml:table>
								<xhtml:thead>
									<xhtml:tr>
										<xhtml:th>Date</xhtml:th>
										<xhtml:th>Product</xhtml:th>
										<xhtml:th>Vaccine</xhtml:th>
										<xhtml:th>Dose</xhtml:th>
									</xhtml:tr>
								</xhtml:thead>
								<xhtml:tbody>
									<xhtml:tr>
										<xhtml:td>2020-12-02</xhtml:td>
										<xhtml:td>Comirnaty</xhtml:td>
										<xhtml:td>COVID-19 mRNA Vaccine</xhtml:td>
										<xhtml:td>1/2</xhtml:td>
									</xhtml:tr>
									<xhtml:tr>
										<xhtml:td>2020-12-23</xhtml:td>
										<xhtml:td>Comirnaty</xhtml:td>
										<xhtml:td>COVID-19 mRNA Vaccine</xhtml:td>
										<xhtml:td>2/2</xhtml:td>
									</xhtml:tr>
								</xhtml:tbody>
							</xhtml:table>
						</xhtml:div>
					</text>
					<entry>
						<reference value="urn:uuid:c220e36c-eb67-4fc4-9ba1-2fabc52acec6"/>
					</entry>
					<entry>
						<reference value="urn:uuid:47524493-846a-4a26-bae2-4ab03e60f02e"/>
					</entry>
				</section>
			</Composition>
		</resource>
	</entry>
	<entry>
		<fullUrl value="urn:uuid:2b90dd2b-2dab-4c75-9bb9-a355e07401e8"/>
		<resource>
			<Patient>
				<id value="2b90dd2b-2dab-4c75-9bb9-a355e07401e8"/>
				<identifier>
					<type>
						<coding>
							<system value="http://terminology.hl7.org/CodeSystem/v2-0203"/>
							<code value="NIIP"/>
						</coding>
					</type>
					<system value="urn:oid:1.2.203.24341.1.20.2"/>
					<value value="740512852"/>
				</identifier>
				<identifier>
					<!-- <type> -->
					<!-- <coding> -->
					<!-- <system value="http://terminology.hl7.org/CodeSystem/v2-0203"/> -->
					<!-- <code value="NIDC"/> -->
					<!-- National ID card Number, new code should be added! -->
					<!-- </coding> -->
					<!-- </type> -->
					<system value="urn:oid:1.2.203.24341.1.20.9.1"/>
					<value value="A225961454"/>
				</identifier>
				<identifier>
					<type>
						<coding>
							<system value="http://terminology.hl7.org/CodeSystem/v2-0203"/>
							<code value="PPN"/>
						</coding>
					</type>
					<system value="urn:oid:2.16.840.1.113883.4.330.203"/>
					<value value="5484136"/>
				</identifier>
				<name>
					<family value="Očkovaný"/>
					<given value="František"/>
				</name>
				<birthDate value="2000-03-21"/>
			</Patient>
		</resource>
	</entry>
	<entry>
		<fullUrl value="urn:uuid:c220e36c-eb67-4fc4-9ba1-2fabc52acec6"/>
		<resource>
			<Immunization>
				<id value="c220e36c-eb67-4fc4-9ba1-2fabc52acec6"/>
				<status value="completed"/>
				<vaccineCode>
					<coding>
						<system value="http://snomed.info/sct"/>
						<code value="1119349007"/>
						<display value="Vaccine product containing only Severe acute respiratory syndrome coronavirus 2 messenger ribonucleic acid"/>
					</coding>
					<text value="Comirnaty"/>
				</vaccineCode>
				<patient>
					<reference value="urn:uuid:2b90dd2b-2dab-4c75-9bb9-a355e07401e8"/>
				</patient>
				<occurrenceDateTime value="2020-12-02"/>
				<location>
					<reference value="urn:uuid:55a5c5b1-4ec1-4d60-b4b2-ff5a84a41fd8"/>
				</location>
				<manufacturer>
					<display value="BioNTech Manufacturing GmbH"/>
				</manufacturer>
				<lotNumber value="B1235742"/>
				<performer>
					<actor>
						<display value="MUDr. Aleš Procházka"/>
					</actor>
				</performer>
				<protocolApplied>
					<targetDisease>
						<coding>
							<system value="http://snomed.info/sct"/>
							<code value="840533007"/>
						</coding>
					</targetDisease>
					<doseNumberPositiveInt value="1"/>
					<seriesDosesString value="2"/>
				</protocolApplied>
			</Immunization>
		</resource>
	</entry>
	<entry>
		<fullUrl value="urn:uuid:47524493-846a-4a26-bae2-4ab03e60f02e"/>
		<resource>
			<Immunization>
				<id value="47524493-846a-4a26-bae2-4ab03e60f02e"/>
				<status value="completed"/>
				<vaccineCode>
					<coding>
						<system value="http://snomed.info/sct"/>
						<code value="1119349007"/>
						<display value="Vaccine product containing only Severe acute respiratory syndrome coronavirus 2 messenger ribonucleic acid"/>
					</coding>
					<text value="Comirnaty"/>
				</vaccineCode>
				<patient>
					<reference value="urn:uuid:2b90dd2b-2dab-4c75-9bb9-a355e07401e8"/>
				</patient>
				<occurrenceDateTime value="2020-12-23"/>
				<location>
					<reference value="urn:uuid:55a5c5b1-4ec1-4d60-b4b2-ff5a84a41fd8"/>
				</location>
				<manufacturer>
					<display value="BioNTech Manufacturing GmbH"/>
				</manufacturer>
				<lotNumber value="D5423452"/>
				<performer>
					<actor>
						<display value="MUDr. Jan Novák"/>
					</actor>
				</performer>
				<protocolApplied>
					<targetDisease>
						<coding>
							<system value="http://snomed.info/sct"/>
							<code value="840533007"/>
						</coding>
					</targetDisease>
					<doseNumberPositiveInt value="2"/>
					<seriesDosesString value="2"/>
				</protocolApplied>
			</Immunization>
		</resource>
	</entry>
	<entry>
		<fullUrl value="urn:uuid:45a5c5b1-4ec1-4d60-b4b2-ff5a84a41fd7"/>
		<resource>
			<Organization>
				<id value="45a5c5b1-4ec1-4d60-b4b2-ff5a84a41fd7"/>
				<identifier>
					<system value="urn:oid:1.2.203"/>
					<value value="24341"/>
				</identifier>
				<name value="Ministry of Health of the Czech Republic"/>
			</Organization>
		</resource>
	</entry>
	<entry>
		<fullUrl value="urn:uuid:55a5c5b1-4ec1-4d60-b4b2-ff5a84a41fd8"/>
		<resource>
			<Location>
				<id value="55a5c5b1-4ec1-4d60-b4b2-ff5a84a41fd8"/>
				<name value="Hospital Na Františku Prague"/>
				<address>
					<city value="Prague"/>
					<country value="CZ"/>
				</address>
			</Location>
		</resource>
	</entry>
</Bundle>
